Data Point Listing of File D:\Samples\Fpraktikum\2023-winter\10112023\export2\Spectrum-own_coil-45x474MHz_100000scans.tnt
Starting Point:	1	Ending Point:	512
Real	Imag	usec
592526.938	3492674.750	0.000
57661.844	-3646240.500	1.000
5164547.500	597619.438	2.000
5366851.500	4855485.000	3.000
2763793.750	-302577.344	4.000
-3830948.250	-307485.938	5.000
-628062.688	529898.625	6.000
-2263549.250	-626483.875	7.000
-3602670.000	888724.875	8.000
495761.938	-3708591.750	9.000
-6494667.000	-4763432.000	10.000
-1495260.500	727244.125	11.000
584285.563	2394550.500	12.000
8049.704	1354368.000	13.000
-1483746.500	742753.875	14.000
316488.844	7294404.500	15.000
6931200.500	-2724053.250	16.000
3820519.750	-339678.000	17.000
-1748913.000	2678013.000	18.000
1745435.750	-2973725.500	19.000
-1836492.750	6242112.500	20.000
5294013.000	-1452442.875	21.000
2574717.000	-5882379.000	22.000
-431979.125	-1821703.375	23.000
-3698932.000	2739020.250	24.000
-2272457.750	670059.688	25.000
-3221617.250	3645577.250	26.000
-1429033.125	-1086738.875	27.000
5316236.000	5218054.000	28.000
1620968.250	2491798.250	29.000
-2564876.750	2119573.000	30.000
7426086.000	2011165.250	31.000
4863623.000	-1140374.750	32.000
-1561013.375	-543732.750	33.000
526449.688	-1251979.500	34.000
-2843509.000	3868802.500	35.000
278156.813	227620.328	36.000
-838008.063	-2525389.500	37.000
-3084786.500	5772150.500	38.000
3535750.500	2622872.750	39.000
-2593125.750	-4749607.000	40.000
-184114.344	-796259.438	41.000
-3641036.250	1533638.250	42.000
-2867551.750	-1614756.750	43.000
1944584.750	6992795.000	44.000
6868935.000	-5133069.500	45.000
1382246.875	5097662.500	46.000
-2123464.750	-5519551.000	47.000
-1236684.625	392131.000	48.000
-882043.063	-4269868.500	49.000
-5129831.500	1825265.625	50.000
1987932.750	683740.000	51.000
486613.188	3764788.000	52.000
9779196.000	-1222485.375	53.000
1647740.875	-4682493.500	54.000
3310186.000	-1766667.750	55.000
6757410.500	-2951216.500	56.000
2223796.000	2435234.000	57.000
1334970.000	2919509.000	58.000
3644831.250	3357859.750	59.000
222254.000	-6302127.500	60.000
-2475699.500	-2745671.250	61.000
-80296.281	-6775004.000	62.000
-8006184.500	3237796.000	63.000
-2747383.750	4725770.500	64.000
-4458499.000	7130958.000	65.000
4506182.000	-1820317.500	66.000
-723672.438	-3985057.250	67.000
-1378294.500	-184829.047	68.000
-989624.188	3114269.750	69.000
3538685.500	-2275692.000	70.000
944233.625	1549878.000	71.000
-5634750.500	-5110031.000	72.000
-2663495.250	-1177415.625	73.000
-2440225.250	-3824591.750	74.000
-2928505.000	8684094.000	75.000
3371000.750	592424.938	76.000
1608955.000	801150.375	77.000
3196749.500	-2461216.750	78.000
-769341.375	4442260.500	79.000
2022105.125	1481011.500	80.000
-1045692.375	1705880.750	81.000
1741732.500	2003386.875	82.000
1738650.250	-3232111.750	83.000
960602.688	-2366691.000	84.000
-3310351.000	-6027263.500	85.000
-2751585.000	3757672.500	86.000
771549.500	815687.938	87.000
1440342.125	3371024.750	88.000
5434125.000	-4694309.000	89.000
328489.188	3833236.500	90.000
449803.344	3905420.000	91.000
677357.125	1572225.000	92.000
3545555.250	-4789573.000	93.000
-6306662.000	-1196621.875	94.000
-239418.844	554723.313	95.000
1567394.625	1370875.375	96.000
545615.625	-588528.875	97.000
-244069.922	-935941.875	98.000
-2180756.500	-4948904.500	99.000
-6054114.000	-3654117.750	100.000
-4498803.000	4364032.500	101.000
-1469227.125	1879970.250	102.000
-1121054.625	3828486.750	103.000
-1540121.625	1127025.000	104.000
1931509.125	738740.813	105.000
2074436.875	2946311.750	106.000
-3246472.750	-2717426.000	107.000
2386164.750	123.965	108.000
-2253238.750	-5644340.000	109.000
-6988605.500	199587.078	110.000
-4269517.500	3098421.250	111.000
-2804222.000	-5333758.000	112.000
1869185.500	-4497554.000	113.000
-2212797.000	-2076440.250	114.000
-512771.719	993137.000	115.000
-299166.281	-2884780.250	116.000
-3663542.500	3629404.000	117.000
-973346.813	5959606.000	118.000
-5702879.500	4968690.500	119.000
3059277.750	4839897.500	120.000
1445882.250	567925.188	121.000
3735747.500	-2883603.250	122.000
3888912.500	-6857673.500	123.000
-1031504.563	-4813638.000	124.000
-804273.063	-2565636.250	125.000
-3415740.000	2638470.000	126.000
-1257571.125	2674405.000	127.000
1765187.625	1639101.250	128.000
-6169994.500	2244218.500	129.000
4082860.750	4677104.000	130.000
4817344.500	-3442915.250	131.000
4125748.000	-2353539.500	132.000
-185525.109	1404428.375	133.000
-4688836.500	-3842605.250	134.000
365502.875	1711004.125	135.000
35926.328	-385159.031	136.000
-3281587.500	-3742627.750	137.000
-2289209.500	-938016.750	138.000
-1614336.250	4152240.250	139.000
-1250539.500	2462439.000	140.000
-1832337.125	1111477.250	141.000
-5088797.500	-3448599.750	142.000
-6164258.500	280821.531	143.000
-2886839.750	6441816.000	144.000
755831.875	-558524.250	145.000
2669686.250	813527.375	146.000
-632405.375	1995320.750	147.000
702521.875	-6129835.000	148.000
-3373607.750	6016278.500	149.000
-452662.625	603136.688	150.000
-1421445.250	2318306.000	151.000
-5997739.000	-718420.938	152.000
-1742472.000	3383850.000	153.000
-778097.000	-4726144.000	154.000
1880037.500	2541162.500	155.000
-1291379.250	-1843774.000	156.000
-1533098.500	8517353.000	157.000
615359.563	892531.750	158.000
4264618.000	3144042.000	159.000
4325598.500	25853.945	160.000
-2372974.750	-5317820.000	161.000
-5932206.500	736949.125	162.000
-249507.656	1432408.125	163.000
1780291.875	2275656.250	164.000
999587.500	2077320.250	165.000
3146834.000	24835.092	166.000
3039808.250	4633618.500	167.000
-2710507.500	123014.125	168.000
4668991.500	720278.063	169.000
-1425868.750	-2749959.500	170.000
4538491.500	-5567633.000	171.000
696963.313	2333551.750	172.000
4743096.000	-2255808.500	173.000
-2774006.750	3518295.250	174.000
3872330.500	712962.375	175.000
-394965.625	-5395065.500	176.000
-1761902.375	-3185178.250	177.000
-167317.438	-1547032.750	178.000
-2880641.500	-512473.344	179.000
-189076.906	-9341757.000	180.000
-1574812.750	3018302.250	181.000
-1104468.875	4863322.500	182.000
1197751.750	-1963774.125	183.000
2778604.250	-3729723.500	184.000
-2863416.750	3198962.750	185.000
1800820.625	-1774728.000	186.000
-1427077.125	-6197556.000	187.000
1430755.250	-287421.844	188.000
-7363210.500	-2373592.750	189.000
-9931329.000	6343255.500	190.000
7103027.000	2597264.500	191.000
973244.063	3303260.500	192.000
7830420.500	3849104.250	193.000
1299039.750	5898512.000	194.000
-1640055.250	-5051923.500	195.000
-522986.719	-1863763.250	196.000
-6833730.000	117699.648	197.000
4284222.500	1390751.500	198.000
-180676.609	-2649218.000	199.000
2390926.750	-5719422.000	200.000
2194856.000	1852611.375	201.000
-665745.313	1924019.500	202.000
-2267135.750	-2287756.500	203.000
963045.625	1935390.500	204.000
-625232.438	-1753825.375	205.000
-535066.125	8627786.000	206.000
66184.484	-4479210.500	207.000
6266572.500	214351.203	208.000
4676938.500	-2936468.250	209.000
-126735.008	958466.438	210.000
4122501.750	1788293.000	211.000
-1537977.375	-2188177.500	212.000
2007714.625	2978070.250	213.000
-2581361.250	-1394167.000	214.000
-2100261.250	-3567849.250	215.000
-4614173.000	4885969.000	216.000
7130859.000	-4604168.500	217.000
-1454149.625	-845209.938	218.000
-5972790.000	519296.281	219.000
248673.234	596639.188	220.000
-3227372.000	1102970.375	221.000
535920.750	1840830.500	222.000
1029134.938	-531769.188	223.000
-1899166.625	-4148550.500	224.000
-10260581.000	-1211312.125	225.000
1125388.125	1553385.375	226.000
-3186218.500	-1210691.125	227.000
-2860293.250	1640997.875	228.000
-1364618.250	3393546.500	229.000
-945061.250	-435731.563	230.000
-5527304.500	-1426599.250	231.000
-5742217.000	5165000.000	232.000
2602450.250	-379224.625	233.000
-763560.750	-167583.781	234.000
-924754.438	-8424553.000	235.000
3251344.000	1502408.625	236.000
278777.063	-5358910.500	237.000
2249339.750	7029012.000	238.000
1788073.125	-4964007.500	239.000
6093578.000	6874764.000	240.000
-8116653.500	-8920564.000	241.000
9309739.000	9323078.000	242.000
-12206753.000	-14784806.000	243.000
18843816.000	27157494.000	244.000
-17894022.000	-27356694.000	245.000
24204756.000	23391894.000	246.000
-16993348.000	-9210276.000	247.000
8835539.000	2700336.750	248.000
-900918.000	-1465486.375	249.000
-3547632.500	1233415.500	250.000
5861396.000	-9315627.000	251.000
-662007.000	686763.750	252.000
-5307850.500	8680789.000	253.000
2274685.500	-3702042.000	254.000
2985170.750	825180.625	255.000
-1329786.250	-2070931.875	256.000
0.326	-1.237	257.000
0.530	-0.707	258.000
0.354	0.177	259.000
0.442	0.420	260.000
0.177	0.000	261.000
-2201405.000	-1309349.375	262.000
2028641.000	5919630.500	263.000
1422112.625	-4609265.500	264.000
-2258933.000	-5550767.500	265.000
-2050853.000	2796723.000	266.000
2229651.750	-2340119.250	267.000
1389616.375	-1698882.000	268.000
-5031487.000	3277260.000	269.000
-1868720.875	2175901.500	270.000
-606006.813	703127.188	271.000
-469964.031	-248516.203	272.000
-4453782.000	-1013739.938	273.000
361632.344	-2403747.250	274.000
-6123634.500	5657966.500	275.000
-2960514.250	1423530.375	276.000
702272.438	6563769.500	277.000
-1754146.500	-2776007.750	278.000
543780.500	2401107.750	279.000
683737.938	-1216425.750	280.000
-1519908.625	-3796780.000	281.000
-671453.063	3779760.750	282.000
-850825.313	2532495.000	283.000
30119.920	-1676647.250	284.000
272035.344	795532.000	285.000
2590595.250	-174474.969	286.000
-1704492.000	-3254320.000	287.000
3340612.000	-5989546.500	288.000
1293339.250	2245150.500	289.000
1419292.875	-67405.750	290.000
-313484.750	-656094.125	291.000
379348.375	-3637147.250	292.000
-2891961.250	6231802.500	293.000
-576658.625	3769709.250	294.000
-1656163.875	-1480040.000	295.000
174896.406	1857410.375	296.000
1625759.000	-518971.250	297.000
824587.938	-2748033.250	298.000
1383996.375	-1966884.000	299.000
1928985.000	-1387225.375	300.000
4135625.000	-1817698.250	301.000
1364866.250	-3735661.000	302.000
-1551737.875	1945559.250	303.000
-6139409.500	-3962902.750	304.000
-3978913.750	7870872.000	305.000
3824909.750	-1223984.125	306.000
-2117907.000	-926692.500	307.000
1846333.750	3635939.750	308.000
2371337.750	7053134.000	309.000
516447.281	-1655561.750	310.000
2189078.000	1447166.375	311.000
704701.563	3042864.750	312.000
3778669.250	4352262.000	313.000
2711211.250	390353.156	314.000
-4472297.500	-1688000.875	315.000
1120939.125	5395765.000	316.000
-2225706.250	-24082.818	317.000
-632320.250	3348336.500	318.000
1929655.500	421285.188	319.000
2320020.250	-1640812.625	320.000
799022.313	3355903.500	321.000
1957387.000	-2268630.250	322.000
302798.625	4460197.000	323.000
2278987.000	4830810.500	324.000
8031396.000	2752186.750	325.000
3940944.250	-4902942.000	326.000
-2225602.750	-6413822.000	327.000
-3343723.000	-337506.469	328.000
113263.211	4424840.000	329.000
4303790.500	-1604342.875	330.000
2616526.250	790238.125	331.000
-5246235.000	-2301986.750	332.000
2709209.000	1982241.750	333.000
52293.020	-276650.500	334.000
6789159.000	818487.563	335.000
955589.375	-5198245.000	336.000
-1071095.375	-1642910.750	337.000
6966330.500	-1623443.625	338.000
658235.500	-8254655.500	339.000
2661362.500	-3422850.750	340.000
-603301.313	4222499.500	341.000
-4086937.000	-3813623.750	342.000
-4980244.000	2388551.250	343.000
-145093.797	-1270905.750	344.000
-3173884.500	914529.813	345.000
3168000.500	841548.250	346.000
-3708399.250	3892830.000	347.000
1253005.500	1608737.250	348.000
3331198.000	7286699.000	349.000
-612110.688	1130328.500	350.000
2313220.000	-3168036.250	351.000
-3347694.500	1248986.750	352.000
5194182.000	3791453.500	353.000
-5190880.000	-4264833.000	354.000
-1114302.375	7794115.500	355.000
1126714.875	2253769.000	356.000
-79022.008	829795.813	357.000
2848760.750	3805030.250	358.000
-4963158.500	3482905.250	359.000
1354271.000	-673378.813	360.000
-3974096.750	-1489876.250	361.000
2666274.250	508431.500	362.000
84705.555	6723211.500	363.000
1879691.125	-1112895.750	364.000
625981.625	517914.688	365.000
1365660.000	-5659105.500	366.000
-8867.826	3655725.500	367.000
-1428972.750	2961307.250	368.000
-3226076.000	2603638.500	369.000
-1884935.750	1672558.875	370.000
3601004.750	3370759.000	371.000
5766764.500	1310375.750	372.000
4319763.500	-2192749.750	373.000
-1217459.500	-2443288.750	374.000
-2145794.750	-5419035.500	375.000
-2942511.750	4964019.000	376.000
140412.797	3917498.500	377.000
-4335481.500	-435818.969	378.000
-407834.250	5235200.000	379.000
734766.000	-2732319.250	380.000
-1603987.500	-2993877.000	381.000
2566256.000	-2204401.250	382.000
-2934573.500	-7053675.500	383.000
-2956983.250	7100269.000	384.000
3263140.500	347489.406	385.000
-3992455.750	5226728.000	386.000
3760806.000	1444759.500	387.000
-2072986.000	-59337.836	388.000
-1371446.875	-3155482.250	389.000
2202961.000	-2455424.250	390.000
1895243.125	1094861.500	391.000
4763708.500	-999622.063	392.000
-3327916.250	64169.230	393.000
-6079231.000	-458152.094	394.000
-4964222.500	5236930.000	395.000
5838462.500	2777671.750	396.000
-3159574.250	1763794.875	397.000
2618970.500	4474621.000	398.000
562444.063	636457.875	399.000
-500904.531	134510.453	400.000
4729855.500	1614142.625	401.000
6657956.000	4327081.500	402.000
-1218457.875	-2309418.750	403.000
4556808.500	-2409658.500	404.000
-145943.828	-4216185.000	405.000
-407783.875	1703157.125	406.000
-4844136.500	-703799.813	407.000
-578837.625	3418677.000	408.000
5296523.000	-4705816.500	409.000
1561338.750	-2340815.500	410.000
-104428.180	-3461897.500	411.000
4707052.000	829231.000	412.000
-4338861.500	-1853269.625	413.000
3394627.250	-1656858.250	414.000
42638.891	-380374.844	415.000
3548645.250	-6641113.500	416.000
1790308.375	-626547.125	417.000
15499.604	3512525.750	418.000
1521669.000	-690085.625	419.000
-5271533.500	-1935320.125	420.000
-6008983.500	-5101153.500	421.000
3368543.250	1038796.000	422.000
-4336879.500	-2785251.000	423.000
386489.094	3782329.750	424.000
4201415.000	8318670.000	425.000
-303185.563	-1537871.625	426.000
1988460.625	513002.781	427.000
1467446.000	-3461888.000	428.000
-443774.906	-3287286.000	429.000
-1034380.625	137699.328	430.000
-3057027.250	1187482.875	431.000
-1222779.250	511121.000	432.000
-5187040.500	1195776.625	433.000
-752874.063	6414276.000	434.000
-481295.219	-3522462.250	435.000
876026.688	342352.469	436.000
2312189.750	3859392.250	437.000
3156646.500	5592568.000	438.000
2358735.750	216995.422	439.000
1540927.625	2036138.750	440.000
3688496.000	-4102519.250	441.000
433870.563	-3665492.750	442.000
802215.375	-4219536.000	443.000
5588903.000	2754630.000	444.000
3926538.750	973582.688	445.000
1088267.750	2392515.500	446.000
4190500.750	3688947.000	447.000
-1167257.375	1149646.000	448.000
4192933.250	3200002.750	449.000
1821548.875	4250310.000	450.000
6850276.500	-3824015.750	451.000
1126323.375	-2881743.000	452.000
-2374457.750	-1258634.500	453.000
2210072.000	-801372.688	454.000
1208723.125	-4211316.000	455.000
2495894.500	772616.125	456.000
-2087627.375	-2233528.000	457.000
2108382.250	-1619424.375	458.000
-1360847.625	-1164293.375	459.000
-1213531.625	182010.516	460.000
-3393244.250	1326878.250	461.000
199427.906	5531455.500	462.000
3146582.000	1064880.500	463.000
-407219.969	-1147239.500	464.000
-3925378.000	4577373.500	465.000
2044498.500	-285938.875	466.000
1937899.500	1432569.625	467.000
-4612406.000	-3901790.750	468.000
-7252235.500	1960453.125	469.000
-873641.000	2012214.500	470.000
-4395513.000	-71533.930	471.000
6599917.000	2450826.500	472.000
991401.500	-2746372.000	473.000
-1952300.000	214062.516	474.000
-5047201.500	1160124.000	475.000
1459711.625	1970722.000	476.000
5104909.000	5360243.500	477.000
83374.672	3641655.250	478.000
2531255.500	-2268076.500	479.000
1640914.625	-60307.723	480.000
2481856.250	-326006.313	481.000
1298487.000	199806.094	482.000
-1197429.875	1588524.750	483.000
3509056.000	3344229.250	484.000
-966328.938	3396527.000	485.000
3987239.000	6647393.500	486.000
788024.000	283111.500	487.000
-1373114.375	4772790.000	488.000
970727.063	-1899992.750	489.000
4204731.000	-1827382.000	490.000
-188949.563	677432.313	491.000
-2035343.000	-3927182.000	492.000
1625362.750	-324257.406	493.000
945703.125	2445555.000	494.000
-1391044.250	3205111.250	495.000
-4305298.000	1027246.688	496.000
2446334.250	4486113.500	497.000
2344773.000	-1086755.625	498.000
-6396637.500	1788393.250	499.000
-2003285.750	146993.359	500.000
-1155789.375	2704204.000	501.000
2131351.250	6702406.500	502.000
-388257.469	4360207.500	503.000
732449.125	-9856294.000	504.000
-8818207.000	-6397610.500	505.000
58354.164	-1172802.625	506.000
-2964075.000	420158.250	507.000
3692682.000	419202.844	508.000
3325823.000	-4148659.000	509.000
-6039597.500	5558594.000	510.000
1799270.625	-538064.125	511.000
